Lithium Hexafluoroaluminate (Li3AlF6)	Al1F6Li3(l)
T(K)	Cp	S	-[G-H(Tr)]/T	H-H(Tr)	delta-f H	delta-f G	log Kf
0														
100														
200														
298.15	202.506	245.847	245.847	0.	-3317.640	-3175.109	556.266
300	203.133	247.101	245.851	0.375	-3317.620	-3174.224	552.682
400	229.869	309.505	254.178	22.131	-3315.832	-3126.664	408.301
500	248.111	362.860	270.709	46.075	-3322.416	-3078.725	321.632
600	262.295	409.396	290.028	71.621	-3318.976	-3030.290	263.810
700	274.052	450.736	310.087	98.454	-3314.421	-2982.521	222.558
700.000	274.052	450.736	310.087	98.454	GLASS <--> LIQUID
700.000	359.824	450.736	310.087	98.454	TRANSITION
800	359.824	498.783	330.738	134.436	-3300.936	-2936.031	191.703
900	359.824	541.165	351.811	170.419	-3287.731	-2891.213	167.802
1000	359.824	579.076	372.675	206.401	-3285.392	-2847.092	148.717
1058.000	359.824	599.363	384.551	227.271	EPSILON <--> LIQUID
1100	359.824	613.371	393.022	242.383	3272.388  2803.892 133.146
1200	359.824	644.680	412.708	278.366	-3259.446	-2761.873	120.221
1300	359.824	673.481	431.675	314.348	-3246.563	-2720.931	109.328
1400	359.824	700.147	449.911	350.331	-3233.726	-2680.980	100.029
1500	359.824	724.972	467.430	386.313	-3220.923	-2641.945	92.001
1600	359.824	748.194	484.260	422.295	-3208.150	-2603.763	85.004
1700	359.824	770.009	500.433	458.278	-3631.111	-2544.851	78.194
1800	359.824	790.576	515.987	494.260	-3616.124	-2481.386	72.008
1900	359.824	810.030	530.955	530.243	-3601.178	-2418.753	66.496
2000	359.824	828.487	545.374	566.225	-3586.265	-2356.906	61.556
2100	359.824	846.043	559.277	602.207	-3571.378	-2295.804	57.105
2200	359.824	862.782	572.696	638.190	-3556.510	-2235.411	53.075
2300	359.824	878.777	585.658	674.172	-3541.653	-2175.693	49.412
2400	359.824	894.091	598.193	710.155	-3526.799	-2116.622	46.067
2500	359.824	908.779	610.324	746.137	-3511.942	-2058.170	43.003
2600	359.824	922.892	622.077	782.119	-3497.076	-2000.313	40.187
2700	359.824	936.472	633.471	818.102	-3482.194	-1943.028	37.590
2800	359.824	949.558	644.528	854.084	-3761.194	-1885.326	35.171
2900	359.824	962.184	655.265	890.067	-3745.173	-1818.614	32.757
3000	359.824	974.383	665.700	926.049	-3729.127	-1752.454	30.513
