Barium Chloride (BaCl2)	Ba1Cl2(cr,l)
T(K)	Cp	S	-[G-H(Tr)]/T	H-H(Tr)	delta-f H	delta-f G	log Kf
0	0.000	0.000	INFINITE	-16.707	-859.171	-859.171	INFINITE
100	56.961	49.346	187.175	-13.783	-860.857	-843.483	440.590
200	71.038	94.429	130.426	-7.199	-859.856	-826.420	215.839
298.15	75.140	123.666	123.666	0.000	-858.557	-810.290	141.959
300	75.195	124.131	123.668	0.139	-858.533	-809.990	141.032
400	77.329	146.082	126.646	7.774	-857.384	-793.994	103.685
500	78.857	163.505	132.335	15.585	-856.963	-778.216	81.300
600	80.425	178.018	138.772	23.547	-857.255	-762.428	66.375
700	82.233	190.548	145.293	31.678	-856.611	-746.684	55.718
800	84.299	201.661	151.657	40.003	-856.313	-730.992	47.729
900	86.624	211.721	157.780	48.546	-855.396	-715.380	41.520
1000	89.471	220.988	163.643	57.345	-854.241	-699.882	36.558
1100	93.531	229.692	169.256	66.480	-861.132	-683.694	32.466
1198.010	100.015	237.924	174.538	75.937	ALPHA <--> BETA
1198.010	123.846	252.033	174.538	92.840	TRANSITION
1200	123.846	252.239	174.666	93.087	-842.429	-667.664	29.063
1235.000	123.846	255.799	176.915	97.422	BETA <--> LIQUID
1235.000	108.784	268.748	176.915	113.413	TRANSITION
1300	108.784	274.328	181.648	120.484	-822.847	-654.101	26.282
1400	108.784	282.389	188.559	131.362	-819.715	-641.237	23.925
1500	108.784	289.895	195.068	142.241	-816.536	-628.600	21.890
1600	108.784	296.915	201.216	153.119	-813.330	-616.175	20.116
1700	108.784	303.510	207.041	163.997	-810.118	-603.951	18.557
1800	108.784	309.728	212.575	174.876	-806.921	-591.916	17.177
1900	108.784	315.610	217.845	185.754	-803.761	-580.058	15.947
2000	108.784	321.190	222.874	196.633	-800.659	-568.365	14.844
2100	108.784	326.497	227.683	207.511	-797.639	-556.825	13.850
2200	108.784	331.558	232.290	218.389	-934.242	-540.051	12.822
2300	108.784	336.394	236.712	229.268	-930.615	-522.215	11.860
2400	108.784	341.023	240.963	240.146	-927.225	-504.532	10.981
2500	108.784	345.464	245.054	251.025	-924.075	-486.986	10.175
2600	108.784	349.731	248.999	261.903	-921.163	-469.560	9.434
2700	108.784	353.836	252.806	272.781	-918.479	-452.243	8.749
2800	108.784	357.793	256.486	283.660	-916.008	-435.021	8.115
2900	108.784	361.610	260.045	294.538	-913.733	-417.883	7.527
3000	108.784	365.298	263.492	305.417	-911.634	-400.821	6.979
