Beryllium Chloride (BeCl2)	Be1Cl2(cr,l)
T(K)	Cp	S	-[G-H(Tr)]/T	H-H(Tr)	delta-f H	delta-f G	log Kf
0	0.	0.	INFINITE	-11.979	-491.795	-491.795	INFINITE
100	33.660	28.974	131.942	-10.297	-493.064	-477.011	249.165
200	53.555	59.036	88.261	-5.845	-492.228	-461.208	120.455
298.15	64.852	82.676	82.676	0.	-490.930	-446.254	78.182
300	65.019	83.078	82.677	0.120	-490.903	-445.977	77.651
400	72.760	102.907	85.329	7.031	-489.303	-431.234	56.313
500	77.530	119.678	90.566	14.556	-487.453	-416.927	43.556
600	80.082	134.040	96.644	22.437	-485.471	-403.007	35.085
688.000	81.278	145.083	102.148	29.539	ALPHA <--> LIQUID
+	
688.000	121.420	157.671	102.148	38.200	TRANSITION
700	121.420	159.771	103.118	39.657	-474.314	-389.578	29.071
800	121.420	175.984	111.235	51.799	-468.369	-377.880	24.673
900	121.420	190.286	119.240	63.941	-462.540	-366.920	21.295
1000	121.420	203.078	126.995	76.083	-456.817	-356.603	18.627
1100	121.420	214.651	134.446	88.225	-451.197	-346.854	16.471
1200	121.420	225.216	141.577	100.367	-445.675	-337.613	14.696
1300	121.420	234.935	148.389	112.509	-440.250	-328.829	13.212
1400	121.420	243.933	154.896	124.651	-434.922	-320.458	11.956
1500	121.420	252.310	161.115	136.793	-429.692	-312.465	10.881
1600	121.420	260.146	167.062	148.935	-439.095	-304.293	9.934
1700	121.420	267.507	172.756	161.077	-433.660	-296.034	9.096
1800	121.420	274.447	178.215	173.219	-428.255	-288.095	8.360
1900	121.420	281.012	183.454	185.361	-422.881	-280.455	7.710
2000	121.420	287.240	188.489	197.503	-417.540	-273.097	7.133
