Strontium Bromide (SrBr2)	Br2Sr1(cr,l)
T(K)	Cp	S	-[G-H(Tr)]/T	H-H(Tr)	delta-f H	delta-f G	log Kf
0	0.	0.	INFINITE	-18.064	-704.960	-704.960	INFINITE
100	64.337	64.952	209.316	-14.436	-705.626	-703.931	367.696
200	73.645	113.388	150.374	-7.397	-705.976	-702.127	183.377
298.15	76.853	143.438	143.438	0.	-717.974	-698.755	122.419
300	76.902	143.913	143.439	0.142	-718.022	-698.636	121.643
400	79.036	166.337	146.482	7.942	-747.431	-686.047	89.589
500	80.835	184.166	152.295	15.935	-745.957	-670.871	70.085
600	82.676	199.060	158.881	24.107	-744.434	-655.995	57.109
700	84.893	211.966	165.563	32.482	-742.832	-641.381	47.860
800	87.571	223.468	172.094	41.099	-741.107	-627.004	40.939
900	91.002	233.971	178.394	50.020	-739.825	-612.781	35.565
918.000	91.717	235.781	179.501	51.664	ALPHA <--> BETA
918.000	115.060	249.098	179.501	63.890	TRANSITION
930.000	115.060	250.593	180.409	65.271	BETA <--> LIQUID
930.000	116.391	261.480	180.409	75.396	TRANSITION
1000	116.391	269.926	186.383	83.543	-713.108	-600.732	31.379
1100	116.391	281.020	194.490	95.182	-716.189	-589.362	27.986
1200	116.391	291.147	202.129	106.822	-712.288	-578.005	25.160
1300	116.391	300.463	209.340	118.461	-708.396	-566.973	22.781
1400	116.391	309.089	216.160	130.100	-704.512	-556.240	20.754
1500	116.391	317.119	222.626	141.739	-700.639	-545.784	19.006
1600	116.391	324.630	228.769	153.378	-696.775	-535.586	17.485
1700	116.391	331.687	234.618	165.017	-829.837	-524.450	16.114
1800	116.391	338.339	240.197	176.656	-824.138	-506.651	14.703
1900	116.391	344.632	245.530	188.295	-818.459	-489.168	13.448
2000	116.391	350.602	250.635	199.934	-812.805	-471.983	12.327
2100	116.391	356.281	255.532	211.573	-807.182	-455.080	11.320
2200	116.391	361.695	260.235	223.212	-801.595	-438.445	10.410
2300	116.391	366.869	264.760	234.851	-796.052	-422.062	9.585
2400	116.391	371.823	269.118	246.490	-790.560	-405.920	8.835
2500	116.391	376.574	273.322	258.129	-785.126	-390.005	8.149
2600	116.391	381.139	277.382	269.768	-779.760	-374.306	7.520
2700	116.391	385.532	281.307	281.407	-774.470	-358.812	6.942
2800	116.391	389.764	285.105	293.046	-769.264	-343.513	6.408
2900	116.391	393.849	288.785	304.685	-764.151	-328.398	5.915
3000	116.391	397.795	292.353	316.324	-759.139	-313.458	5.458
