Magnesium Chloride (MgCl2)	Cl2Mg1(l)
T(K)	Cp	S	-[G-H(Tr)]/T	H-H(Tr)	delta-f H	delta-f G	log Kf
0														
100														
200														
298.15	71.379	129.480	129.480	0.	-601.577	-563.929	98.798
300	71.496	129.922	129.482	0.132	-601.553	-563.696	98.148
400	75.709	151.128	132.344	7.513	-600.197	-551.276	71.989
500	78.145	168.303	137.873	15.215	-598.733	-539.214	56.331
600	79.873	182.554	144.164	23.034	-597.314	-527.443	45.918
660.000	85.617	190.408	148.013	27.981	GLASS <--> LIQUID
660.000	92.048	190.415	148.013	27.985	TRANSITION
700	92.048	195.831	150.592	31.667	-595.225	-515.943	38.500
800	92.048	208.122	157.032	40.872	-592.708	-504.791	32.959
900	92.048	218.964	163.323	50.077	-590.342	-493.945	28.668
987.000	92.048	227.458	168.608	58.085	CRYSTAL <--> LIQUID
1000	92.048	228.662	169.381	59.282	596.730  482.642 25.211
1100	92.048	237.435	175.175	68.486	-594.706	-471.331	22.382
1200	92.048	245.444	180.702	77.691	-592.694	-460.204	20.032
1300	92.048	252.812	185.969	86.896	-590.692	-449.244	18.051
1400	92.048	259.634	190.990	96.101	-716.109	-435.271	16.240
1500	92.048	265.984	195.781	105.306	-712.774	-415.328	14.463
1600	92.048	271.925	200.356	114.510	-709.448	-395.607	12.915
1700	92.048	277.505	204.732	123.715	-706.130	-376.093	11.556
1800	92.048	282.767	208.922	132.920	-702.822	-356.775	10.353
1900	92.048	287.744	212.941	142.125	-699.523	-337.640	9.282
2000	92.048	292.465	216.800	151.330	-696.234	-318.679	8.323
2100	92.048	296.956	220.511	160.534	-692.957	-299.881	7.459
2200	92.048	301.238	224.084	169.739	-689.692	-281.240	6.677
2300	92.048	305.330	227.528	178.944	-686.441	-262.747	5.967
2400	92.048	309.247	230.852	188.149	-683.206	-244.395	5.319
2500	92.048	313.005	234.063	197.354	-679.988	-226.177	4.726
