Copper (Cu)	Cu1(l)
T(K)	Cp	S	-[G-H(Tr)]/T	H-H(Tr)	delta-f H	delta-f G	log Kf
0														
100														
200														
298.15	24.442	41.620	41.620	0.	11.857	9.336	-1.636
300	24.460	41.772	41.621	0.045	11.857	9.320	-1.623
350	24.973	45.583	41.921	1.282	11.857	8.898	-1.328
400	25.316	48.939	42.592	2.539	11.857	8.475	-1.107
450	25.684	51.944	43.467	3.814	11.857	8.052	-0.935
500	25.910	54.661	44.453	5.104	11.857	7.629	-0.797
600	26.478	59.436	46.563	7.724	11.857	6.784	-0.591
700	26.993	63.557	48.703	10.398	11.856	5.938	-0.443
800	27.491	67.193	50.791	13.121	11.856	5.093	-0.333
900	28.047	70.463	52.798	15.898	11.856	4.248	-0.247
900.000	28.047	70.463	52.798	15.898	GLASS <--> LIQUID
900.000	32.844	70.463	52.798	15.898	TRANSITION
1000	32.844	73.923	54.741	19.182	12.306	3.378	-0.176
1100	32.844	77.053	56.629	22.467	12.686	2.466	-0.117
1200	32.844	79.911	58.452	25.751	12.975	1.523	-0.066
1300	32.844	82.540	60.205	29.036	13.131	0.561	-0.023
1358.000	32.844	83.974	61.190	30.941	CRYSTAL <--> LIQUID
1400	32.844	84.974	61.889	32.320	0. 0. 0.
1500	32.844	87.240	63.504	35.604	0.	0.	0.
1600	32.844	89.360	65.055	38.889	0.	0.	0.
1700	32.844	91.351	66.543	42.173	0.	0.	0.
1800	32.844	93.229	67.974	45.458	0.	0.	0.
1900	32.844	95.004	69.351	48.742	0.	0.	0.
2000	32.844	96.689	70.676	52.027	0.	0.	0.
2100	32.844	98.292	71.953	55.311	0.	0.	0.
2200	32.844	99.819	73.185	58.596	0.	0.	0.
2300	32.844	101.279	74.375	61.880	0.	0.	0.
2400	32.844	102.677	75.525	65.164	0.	0.	0.
2500	32.844	104.018	76.639	68.449	0.	0.	0.
2600	32.844	105.306	77.717	71.733	0.	0.	0.
2700	32.844	106.546	78.761	75.018	0.	0.	0.
2800	32.844	107.740	79.775	78.302	0.	0.	0.
2843.261	32.844	108.244	80.205	79.723	FUGACITY = 1 bar
2900	32.844	108.893	80.760	81.587	300.204 5.996  0.108
3000	32.844	110.006	81.716	84.871	-299.409	16.541	-0.288
3100	32.844	111.083	82.646	88.155	-298.665	27.060	-0.456
3200	32.844	112.126	83.551	91.440	-297.971	37.556	-0.613
3300	32.844	113.137	84.432	94.724	-297.328	48.031	-0.760
3400	32.844	114.117	85.291	98.009	-296.737	58.488	-0.899
3500	32.844	115.069	86.128	101.293	-296.195	68.927	-1.029
3600	32.844	115.995	86.945	104.578	-295.703	79.352	-1.151
3700	32.844	116.894	87.743	107.862	-295.259	89.764	-1.267
3800	32.844	117.770	88.521	111.147	-294.862	100.165	-1.377
3900	32.844	118.624	89.282	114.431	-294.509	110.556	-1.481
4000	32.844	119.455	90.026	117.715	-294.199	120.938	-1.579
