Strontium Iodide (SrI2)	I2Sr1(l)
T(K)	Cp	S	-[G-H(Tr)]/T	H-H(Tr)	delta-f H	delta-f G	log Kf
0														
100														
200														
298.15	77.948	172.440	172.440	0.	-548.748	-548.928	96.170
300	78.032	172.923	172.442	0.144	-548.754	-548.929	95.577
400	80.751	195.741	175.534	8.083	-565.183	-548.373	71.610
499.990	83.513	214.055	181.464	16.295	GLASS <--> LIQUID
499.990	110.039	214.055	181.464	16.295	TRANSITION
500	110.039	214.057	181.465	16.296	-607.994	-540.057	56.419
600	110.039	234.120	188.620	27.300	-603.674	-526.878	45.869
700	110.039	251.082	196.362	38.304	-599.471	-514.413	38.386
800	110.039	265.776	204.141	49.308	-595.386	-502.542	32.813
811.000	110.039	267.279	204.987	50.518	CRYSTAL <--> LIQUID
900	110.039	278.737	211.724	60.312	592.047  491.103 28.503
1000	110.039	290.330	219.015	71.316	-587.878	-480.111	25.078
1100	110.039	300.818	225.982	82.320	-591.626	-469.170	22.279
1200	110.039	310.393	232.623	93.323	-588.401	-458.180	19.944
1300	110.039	319.201	238.949	104.327	-585.199	-447.459	17.979
1400	110.039	327.356	244.976	115.331	-582.028	-436.982	16.304
1500	110.039	334.948	250.724	126.335	-578.898	-426.731	14.860
1600	110.039	342.049	256.212	137.339	-575.818	-416.688	13.603
1700	110.039	348.720	261.460	148.343	-709.710	-405.655	12.464
1800	110.039	355.010	266.484	159.347	-704.893	-387.909	11.257
1900	110.039	360.960	271.301	170.351	-700.151	-370.429	10.184
2000	110.039	366.604	275.926	181.355	-695.487	-353.196	9.225
2100	110.039	371.973	280.373	192.359	-690.902	-336.194	8.362
2200	110.039	377.092	284.654	203.363	-686.397	-319.410	7.584
2300	110.039	381.983	288.780	214.367	-681.969	-302.828	6.877
2400	110.039	386.666	292.762	225.370	-677.614	-286.437	6.234
2500	110.039	391.158	296.609	236.374	-673.330	-270.226	5.646
2600	110.039	395.474	300.329	247.378	-669.112	-254.185	5.107
