Vanadium Oxide (VO)	O1V1(l)
T(K)	Cp	S	-[G-H(Tr)]/T	H-H(Tr)	delta-f H	delta-f G	log Kf
0														
100														
200														
298.15	45.501	69.137	69.137	0.000	-370.901	-352.304	61.722
300	45.647	69.419	69.138	0.084	-370.890	-352.189	61.322
400	49.580	83.188	70.988	4.880	-370.144	-346.062	45.191
500	51.651	94.481	74.592	9.945	-369.269	-340.141	35.534
600	53.530	104.066	78.725	15.204	-368.311	-334.403	29.112
700	55.343	112.454	82.956	20.648	-367.270	-328.833	24.538
800	57.099	119.959	87.121	26.271	-366.149	-323.418	21.117
900	58.803	126.783	91.154	32.067	-364.958	-318.147	18.465
1000	60.463	133.065	95.035	38.030	-363.698	-313.013	16.350
1100	62.086	138.904	98.761	44.158	-362.371	-308.008	14.626
1200	63.676	144.375	102.336	50.446	-360.991	-303.127	13.195
1200.000	63.676	144.375	102.336	50.446	GLASS <--> LIQUID
1200.000	62.760	144.375	102.336	50.446	TRANSITION
1300	62.760	149.399	105.766	56.722	-359.733	-298.357	11.988
1400	62.760	154.050	109.051	62.998	-358.591	-293.679	10.957
1500	62.760	158.380	112.197	69.274	-357.566	-289.079	10.067
1600	62.760	162.430	115.211	75.550	-356.656	-284.543	9.289
1700	62.760	166.235	118.102	81.826	-355.870	-280.061	8.605
1800	62.760	169.822	120.876	88.102	-355.212	-275.621	7.998
1900	62.760	173.215	123.542	94.378	-354.693	-271.214	7.456
2000	62.760	176.434	126.107	100.654	-354.319	-266.831	6.969
2063.000	62.760	178.381	127.674	104.608	CRYSTAL <--> LIQUID
2100	62.760	179.497	128.577	106.930	354.103  262.463 6.528
2200	62.760	182.416	130.959	113.206	-376.933	-257.996	6.126
2300	62.760	185.206	133.257	119.482	-377.193	-252.584	5.736
2400	62.760	187.877	135.478	125.758	-377.464	-247.161	5.379
2500	62.760	190.439	137.625	132.034	-377.745	-241.726	5.051
2600	62.760	192.900	139.704	138.310	-378.038	-236.279	4.747
2700	62.760	195.269	141.719	144.586	-378.341	-230.821	4.466
2800	62.760	197.551	143.672	150.862	-378.654	-225.352	4.204
2900	62.760	199.754	145.568	157.138	-378.977	-219.871	3.960
3000	62.760	201.881	147.410	163.414	-379.310	-214.379	3.733
3100	62.760	203.939	149.201	169.690	-379.652	-208.875	3.520
3200	62.760	205.932	150.942	175.966	-380.004	-203.361	3.320
3300	62.760	207.863	152.638	182.242	-380.364	-197.836	3.131
3400	62.760	209.737	154.290	188.518	-380.732	-192.299	2.954
3500	62.760	211.556	155.900	194.794	-381.108	-186.751	2.787
