Strontium Chloride (SrCl2)	Cl2Sr1(l)
T(K)	Cp	S	-[G-H(Tr)]/T	H-H(Tr)	delta-f H	delta-f G	log Kf
0														
100														
200														
298.15	75.588	135.820	135.820	0.	-805.351	-762.730	133.627
300	75.659	136.288	135.822	0.140	-805.323	-762.465	132.757
400	78.889	158.524	138.832	7.877	-803.786	-748.408	97.732
500	81.321	176.397	144.615	15.891	-802.170	-734.749	76.759
600	83.659	191.426	151.196	24.138	-800.486	-721.422	62.805
700	86.580	204.529	157.898	32.642	-798.687	-708.385	52.860
800	90.793	216.348	164.476	41.497	-796.671	-695.619	45.419
800.010	90.793	216.349	164.477	41.498	GLASS <--> LIQUID
800.010	104.600	216.349	164.477	41.498	TRANSITION
900	104.600	228.668	170.938	51.957	-793.806	-683.126	39.648
1000	104.600	239.688	177.271	62.417	-790.116	-671.027	35.051
1100	104.600	249.658	183.406	72.877	-794.343	-658.930	31.290
1147.000	104.600	254.034	186.211	77.793	BETA <--> LIQUID
1200	104.600	258.759	189.312	83.337	791.591  646.742 28.152
1300	104.600	267.132	194.980	93.797	-788.849	-634.782	25.506
1400	104.600	274.883	200.414	104.257	-786.117	-623.033	23.246
1500	104.600	282.100	205.622	114.717	-783.394	-611.480	21.294
1600	104.600	288.851	210.615	125.177	-780.680	-600.107	19.591
1700	104.600	295.192	215.406	135.637	-914.890	-587.725	18.059
1800	104.600	301.171	220.006	146.097	-910.333	-568.611	16.501
1900	104.600	306.826	224.428	156.557	-905.792	-549.751	15.114
2000	104.600	312.191	228.683	167.017	-901.269	-531.129	13.872
2100	104.600	317.295	232.782	177.477	-896.769	-512.732	12.754
2200	104.600	322.161	236.735	187.937	-892.298	-494.550	11.742
2300	104.600	326.811	240.551	198.397	-887.862	-476.570	10.823
2400	104.600	331.262	244.239	208.857	-883.470	-458.782	9.985
2500	104.600	335.532	247.805	219.317	-879.131	-441.176	9.218
2600	104.600	339.635	251.259	229.777	-874.852	-423.742	8.513
2700	104.600	343.582	254.606	240.237	-870.645	-406.472	7.864
2800	104.600	347.386	257.852	250.697	-866.521	-389.356	7.264
2900	104.600	351.057	261.003	261.157	-862.488	-372.386	6.707
3000	104.600	354.603	264.064	271.617	-858.558	-355.553	6.191
