Manganese (Mn)	Mn1(ref)
T(K)	Cp	S	-[G-H(Tr)]/T	H-H(Tr)	delta-f H	delta-f G	log Kf
0	0.	0.	INFINITE	-4.994	0.	0.	0.
100	14.723	8.875	52.876	-4.400	0.	0.	0.
200	23.054	22.133	34.325	-2.438	0.	0.	0.
298.15	26.299	32.010	32.010	0.	0.	0.	0.
300	26.347	32.173	32.010	0.049	0.	0.	0.
400	28.527	40.066	33.072	2.798	0.	0.	0.
500	30.292	46.696	35.152	5.772	0.	0.	0.
600	31.899	52.362	37.559	8.882	0.	0.	0.
700	33.426	57.395	40.039	12.149	0.	0.	0.
800	34.915	61.956	42.498	15.566	0.	0.	0.
900	36.384	66.153	44.896	19.131	0.	0.	0.
980.000	37.545	69.300	46.761	22.088	ALPHA <--> BETA
980.000	37.572	71.572	46.761	24.314	TRANSITION
1000	37.698	72.332	47.265	25.067	0.	0.	0.
1100	38.116	75.945	49.710	28.858	0.	0.	0.
1200	38.535	79.279	52.037	32.690	0.	0.	0.
1300	38.953	82.380	54.253	36.565	0.	0.	0.
1361.000	39.204	84.172	55.554	38.948	BETA <--> GAMMA
1361.000	43.095	85.731	55.554	41.070	TRANSITION
1400	43.430	86.953	56.412	42.757	0.	0.	0.
1412.000	43.514	87.324	56.673	43.279	GAMMA <--> DELTA
1412.000	45.229	88.655	56.673	45.158	TRANSITION
1500	45.982	91.413	58.631	49.173	0.	0.	0.
1519.000	46.108	91.993	59.045	50.048	DELTA <--> LIQUID
1519.000	46.024	99.931	59.045	62.106	TRANSITION
1600	46.024	102.322	61.176	65.834	0.	0.	0.
1700	46.024	105.112	63.679	70.436	0.	0.	0.
1800	46.024	107.743	66.055	75.039	0.	0.	0.
1900	46.024	110.231	68.315	79.641	0.	0.	0.
2000	46.024	112.592	70.470	84.244	0.	0.	0.
2100	46.024	114.837	72.530	88.846	0.	0.	0.
2200	46.024	116.978	74.502	93.448	0.	0.	0.
2300	46.024	119.024	76.393	98.051	0.	0.	0.
2334.526	46.024	119.710	77.029	99.640	LIQUID <--> IDEAL GAS
2334.526	20.951	216.509	77.029	325.620	FUGACITY = 1 bar
2400	20.997	217.089	80.842	326.993	0.	0.	0.
2500	21.085	217.948	86.309	329.097	0.	0.	0.
2600	21.198	218.777	91.388	331.211	0.	0.	0.
2700	21.341	219.580	96.121	333.338	0.	0.	0.
2800	21.515	220.359	100.545	335.480	0.	0.	0.
2900	21.726	221.118	104.689	337.642	0.	0.	0.
3000	21.976	221.858	108.583	339.827	0.	0.	0.
3100	22.269	222.583	112.248	342.039	0.	0.	0.
3200	22.606	223.296	115.708	344.282	0.	0.	0.
3300	22.990	223.997	118.978	346.561	0.	0.	0.
3400	23.424	224.690	122.077	348.882	0.	0.	0.
3500	23.909	225.376	125.019	351.248	0.	0.	0.
3600	24.445	226.056	127.816	353.665	0.	0.	0.
3700	25.034	226.734	130.480	356.139	0.	0.	0.
3800	25.675	227.410	133.022	358.674	0.	0.	0.
3900	26.370	228.086	135.451	361.275	0.	0.	0.
4000	27.118	228.763	137.776	363.949	0.	0.	0.
4200	28.772	230.125	142.141	369.535	0.	0.	0.
4400	30.635	231.506	146.171	375.472	0.	0.	0.
4600	32.606	232.907	149.912	381.777	0.	0.	0.
4800	34.798	234.340	153.399	388.514	0.	0.	0.
5000	37.153	235.808	156.666	395.707	0.	0.	0.
5200	39.664	237.313	159.739	403.386	0.	0.	0.
5400	42.327	238.860	162.641	411.582	0.	0.	0.
5600	43.514	240.321	165.382	419.658	0.	0.	0.
5800	45.714	241.887	167.993	428.580	0.	0.	0.
6000	47.832	243.472	170.483	437.936	0.	0.	0.
