Tungsten Oxide (WO2.90)	O2.90W1(cr)
T(K)	Cp	S	-[G-H(Tr)]/T	H-H(Tr)	delta-f H	delta-f G	log Kf
0														
100														
200														
298.15	71.379	73.371	73.371	0.000	-820.064	-743.513	130.260
300	71.546	73.813	73.372	0.132	-820.056	-743.038	129.374
400	80.333	95.634	76.287	7.739	-819.221	-717.472	93.692
500	86.609	114.277	82.067	16.105	-817.804	-692.189	72.313
600	90.918	130.473	88.815	24.995	-816.053	-667.227	58.087
700	93.931	144.726	95.805	34.245	-814.124	-642.573	47.949
800	95.981	157.409	102.727	43.746	-812.106	-618.203	40.365
900	97.655	168.813	109.447	53.430	-810.049	-594.088	34.480
1000	99.244	179.189	115.910	63.279	-807.953	-570.205	29.784
1100	100.562	188.692	122.101	73.251	-805.849	-546.531	25.953
1200	101.880	197.496	128.021	83.370	-803.700	-523.051	22.768
1300	103.303	205.707	133.685	93.629	-801.506	-499.753	20.080
1400	104.558	213.411	139.107	104.025	-799.266	-476.625	17.783
1500	105.688	220.663	144.305	114.537	-796.996	-453.658	15.798
1600	106.818	227.520	149.293	125.162	-794.699	-430.844	14.066
1700	108.073	234.033	154.088	135.906	-792.364	-408.174	12.542
1800	109.328	240.246	158.703	146.777	-789.987	-385.643	11.191
1900	110.583	246.191	163.153	157.772	-787.566	-363.245	9.986
2000	111.838	251.895	167.448	168.893	-785.101	-340.976	8.905
2100	113.094	257.382	171.601	180.140	-782.593	-318.832	7.931
2200	114.349	262.672	175.621	191.512	-780.042	-296.806	7.047
2300	115.604	267.782	179.517	203.009	-777.448	-274.900	6.243
2400	116.859	272.729	183.299	214.633	-774.810	-253.107	5.509
2500	118.114	277.525	186.972	226.381	-772.128	-231.424	4.835
2600	119.370	282.182	190.545	238.255	-769.399	-209.849	4.216
2700	120.625	286.710	194.023	250.255	-766.648	-188.380	3.644
2800	121.880	291.120	197.413	262.380	-763.911	-167.013	3.116
2900	123.135	295.419	200.718	274.631	-761.226	-145.743	2.625
3000	124.390	299.614	203.945	287.007	-758.618	-124.564	2.169
